Data from White_Bg_Subt2_008.txt Node
Date: Tue Aug 27 12:42:55 EDT 2019
User: wcc
Spectrometer: QEPB0759
Trigger mode: 0
Integration Time (sec): 1.000000E0
Scans to average: 1
Electric dark correction enabled: true
Nonlinearity correction enabled: false
Boxcar width: 0
XAxis mode: Wavelengths
Number of Pixels in Spectrum: 1044
>>>>>Begin Spectral Data<<<<<
197.938	28
198.749	27
199.559	23
200.369	34
201.179	33
201.988	33
202.798	35
203.608	23
204.417	23
205.227	30
206.036	23
206.846	38
207.655	34
208.464	21
209.273	38
210.082	25
210.891	29
211.7	20
212.508	35
213.317	31
214.125	24
214.934	37
215.742	21
216.55	28
217.359	23
218.167	40
218.975	40
219.782	34
220.59	24
221.398	23
222.206	30
223.013	37
223.82	40
224.628	29
225.435	33
226.242	19
227.049	20
227.856	22
228.663	42
229.47	26
230.277	33
231.083	26
231.89	15
232.696	27
233.502	23
234.309	48
235.115	37
235.921	23
236.727	31
237.533	22
238.339	33
239.144	25
239.95	28
240.756	36
241.561	29
242.366	36
243.172	25
243.977	22
244.782	29
245.587	39
246.392	21
247.197	8
248.001	28
248.806	37
249.611	31
250.415	28
251.219	25
252.024	24
252.828	31
253.632	27
254.436	30
255.24	40
256.044	32
256.848	27
257.651	29
258.455	33
259.258	30
260.062	1219
260.865	20
261.668	30
262.471	20
263.274	21
264.077	24
264.88	21
265.683	29
266.486	12
267.288	23
268.091	35
268.893	33
269.696	22
270.498	37
271.3	23
272.102	36
272.904	31
273.706	30
274.508	23
275.309	50
276.111	42
276.913	28
277.714	31
278.515	12
279.317	36
280.118	18
280.919	24
281.72	25
282.521	35
283.322	25
284.122	22
284.923	23
285.724	26
286.524	37
287.325	30
288.125	8
288.925	36
289.725	23
290.525	29
291.325	30
292.125	17
292.925	36
293.724	35
294.524	22
295.324	25
296.123	29
296.922	31
297.722	40
298.521	29
299.32	38
300.119	20
300.918	28
301.716	26
302.515	30
303.314	33
304.112	31
304.911	38
305.709	29
306.507	23
307.306	18
308.104	26
308.902	35
309.7	38
310.498	24
311.295	24
312.093	35
312.891	24
313.688	40
314.485	24
315.283	31
316.08	20
316.877	43
317.674	25
318.471	31
319.268	40
320.065	25
320.862	27
321.658	35
322.455	36
323.251	22
324.047	26
324.844	20
325.64	18
326.436	30
327.232	26
328.028	30
328.824	32
329.62	35
330.415	28
331.211	27
332.006	34
332.802	26
333.597	35
334.392	33
335.187	30
335.982	32
336.777	37
337.572	35
338.367	18
339.162	32
339.956	18
340.751	31
341.545	40
342.34	25
343.134	21
343.928	31
344.722	30
345.516	20
346.31	22
347.104	43
347.898	39
348.691	25
349.485	22
350.278	18
351.072	30
351.865	93
352.658	29
353.452	16
354.245	27
355.038	27
355.83	26
356.623	34
357.416	27
358.209	29
359.001	29
359.794	30
360.586	43
361.378	32
362.17	10
362.963	20
363.755	22
364.546	21
365.338	20
366.13	33
366.922	29
367.713	22
368.505	34
369.296	23
370.088	29
370.879	32
371.67	28
372.461	30
373.252	24
374.043	27
374.834	9
375.625	31
376.415	20
377.206	22
377.996	38
378.787	33
379.577	18
380.367	22
381.157	26
381.947	31
382.737	9
383.527	27
384.317	34
385.107	29
385.896	11
386.686	21
387.475	25
388.265	27
389.054	42
389.843	30
390.632	24
391.421	32
392.21	32
392.999	19
393.788	38
394.576	41
395.365	35
396.154	22
396.942	24
397.73	25
398.519	37
399.307	19
400.095	36
400.883	18
401.671	24
402.459	17
403.246	20
404.034	34
404.822	31
405.609	29
406.396	36
407.184	32
407.971	27
408.758	28
409.545	26
410.332	40
411.119	30
411.906	15
412.693	35
413.479	35
414.266	32
415.052	26
415.839	27
416.625	25
417.411	18
418.197	32
418.983	36
419.769	28
420.555	22
421.341	35
422.127	34
422.912	32
423.698	26
424.483	12
425.269	29
426.054	19
426.839	17
427.624	14
428.409	28
429.194	28
429.979	44
430.764	36
431.549	31
432.333	32
433.118	21
433.902	20
434.687	29
435.471	30
436.255	30
437.039	29
437.823	31
438.607	24
439.391	29
440.175	11
440.958	33
441.742	34
442.526	23
443.309	19
444.092	33
444.876	51
445.659	30
446.442	26
447.225	32
448.008	37
448.791	54
449.573	34
450.356	43
451.139	29
451.921	26
452.704	16
453.486	51
454.268	40
455.05	29
455.833	27
456.615	35
457.396	37
458.178	30
458.96	36
459.742	45
460.523	30
461.305	34
462.086	46
462.868	58
463.649	42
464.43	34
465.211	44
465.992	40
466.773	49
467.554	29
468.335	47
469.115	37
469.896	32
470.676	33
471.457	36
472.237	38
473.018	22
473.798	53
474.578	44
475.358	31
476.138	28
476.918	32
477.697	14
478.477	29
479.257	28
480.036	31
480.816	24
481.595	41
482.374	23
483.153	44
483.932	30
484.711	21
485.49	33
486.269	33
487.048	30
487.827	27
488.605	28
489.384	27
490.162	21
490.941	29
491.719	33
492.497	31
493.275	39
494.053	30
494.831	27
495.609	18
496.387	40
497.164	31
497.942	47
498.72	33
499.497	28
500.274	30
501.052	43
501.829	42
502.606	32
503.383	42
504.16	43
504.937	44
505.714	47
506.49	49
507.267	25
508.043	42
508.82	41
509.596	36
510.373	31
511.149	46
511.925	32
512.701	34
513.477	42
514.253	28
515.029	41
515.804	34
516.58	43
517.356	38
518.131	34
518.906	46
519.682	30
520.457	32
521.232	22
522.007	40
522.782	30
523.557	32
524.332	33
525.107	53
525.881	45
526.656	44
527.43	50
528.205	44
528.979	38
529.753	46
530.527	58
531.302	44
532.076	40
532.849	36
533.623	49
534.397	42
535.171	50
535.944	51
536.718	36
537.491	64
538.265	49
539.038	45
539.811	44
540.584	27
541.357	38
542.13	55
542.903	42
543.676	44
544.449	33
545.221	32
545.994	35
546.766	35
547.539	31
548.311	42
549.083	42
549.855	32
550.627	44
551.399	46
552.171	42
552.943	54
553.715	33
554.486	45
555.258	31
556.029	41
556.801	41
557.572	55
558.343	41
559.114	42
559.886	34
560.657	43
561.427	49
562.198	38
562.969	34
563.74	48
564.51	42
565.281	37
566.051	44
566.822	43
567.592	43
568.362	48
569.132	48
569.902	56
570.672	39
571.442	42
572.212	48
572.982	45
573.751	46
574.521	72
575.29	40
576.06	44
576.829	42
577.598	38
578.367	31
579.136	46
579.905	39
580.674	49
581.443	49
582.212	38
582.981	54
583.749	32
584.518	52
585.286	41
586.054	50
586.823	51
587.591	38
588.359	57
589.127	45
589.895	39
590.663	50
591.431	46
592.198	45
592.966	38
593.734	47
594.501	42
595.268	55
596.036	53
596.803	48
597.57	41
598.337	45
599.104	55
599.871	47
600.638	49
601.405	47
602.171	36
602.938	46
603.704	36
604.471	31
605.237	54
606.004	35
606.77	53
607.536	43
608.302	34
609.068	48
609.834	33
610.599	33
611.365	35
612.131	47
612.896	41
613.662	32
614.427	40
615.193	31
615.958	26
616.723	39
617.488	36
618.253	29
619.018	43
619.783	30
620.548	47
621.312	44
622.077	51
622.842	46
623.606	40
624.37	31
625.135	35
625.899	43
626.663	48
627.427	49
628.191	44
628.955	48
629.719	33
630.483	55
631.246	43
632.01	40
632.773	53
633.537	56
634.3	41
635.063	32
635.827	47
636.59	39
637.353	30
638.116	51
638.879	40
639.641	49
640.404	59
641.167	49
641.929	42
642.692	44
643.454	46
644.216	39
644.979	35
645.741	42
646.503	48
647.265	42
648.027	48
648.789	44
649.551	41
650.312	39
651.074	47
651.835	38
652.597	49
653.358	44
654.12	45
654.881	48
655.642	41
656.403	43
657.164	39
657.925	46
658.686	46
659.447	54
660.207	48
660.968	39
661.728	52
662.489	71
663.249	47
664.01	37
664.77	39
665.53	37
666.29	40
667.05	55
667.81	48
668.57	59
669.329	36
670.089	52
670.849	53
671.608	57
672.368	45
673.127	57
673.886	44
674.646	42
675.405	35
676.164	41
676.923	46
677.682	48
678.44	54
679.199	48
679.958	1
680.717	28
681.475	40
682.233	51
682.992	52
683.75	57
684.508	48
685.266	50
686.024	51
686.782	49
687.54	44
688.298	41
689.056	35
689.814	49
690.571	46
691.329	61
692.086	49
692.843	39
693.601	52
694.358	39
695.115	49
695.872	58
696.629	44
697.386	48
698.143	51
698.9	56
699.656	45
700.413	40
701.169	43
701.926	40
702.682	47
703.438	51
704.195	35
704.951	34
705.707	43
706.463	40
707.219	36
707.974	47
708.73	41
709.486	42
710.241	33
710.997	46
711.752	40
712.508	40
713.263	38
714.018	33
714.773	46
715.528	33
716.283	48
717.038	40
717.793	34
718.548	29
719.303	46
720.057	32
720.812	34
721.566	38
722.321	39
723.075	41
723.829	43
724.583	24
725.337	40
726.091	21
726.845	35
727.599	36
728.353	34
729.106	42
729.86	37
730.614	40
731.367	-77
732.12	36
732.874	33
733.627	41
734.38	31
735.133	33
735.886	37
736.639	34
737.392	32
738.145	29
738.897	28
739.65	32
740.403	31
741.155	30
741.907	35
742.66	32
743.412	32
744.164	41
744.916	34
745.668	30
746.42	41
747.172	28
747.924	26
748.676	33
749.427	26
750.179	32
750.93	29
751.682	36
752.433	33
753.184	40
753.935	32
754.687	27
755.438	33
756.189	35
756.939	24
757.69	33
758.441	42
759.192	35
759.942	24
760.693	38
761.443	34
762.194	38
762.944	19
763.694	24
764.444	8
765.194	41
765.944	29
766.694	30
767.444	22
768.194	33
768.943	33
769.693	26
770.443	29
771.192	47
771.941	26
772.691	27
773.44	19
774.189	23
774.938	25
775.687	27
776.436	17
777.185	28
777.934	26
778.683	20
779.431	32
780.18	35
780.928	12
781.677	19
782.425	31
783.173	33
783.922	23
784.67	13
785.418	32
786.166	34
786.914	19
787.661	20
788.409	32
789.157	32
789.904	17
790.652	33
791.399	35
792.147	37
792.894	13
793.641	27
794.388	212
795.136	22
795.883	28
796.629	22
797.376	28
798.123	24
798.87	26
799.616	27
800.363	35
801.109	33
801.856	35
802.602	12
803.349	45
804.095	31
804.841	32
805.587	14
806.333	29
807.079	32
807.825	36
808.57	27
809.316	37
810.062	31
810.807	27
811.553	40
812.298	32
813.043	31
813.788	34
814.534	19
815.279	23
816.024	26
816.769	31
817.514	34
818.258	33
819.003	21
819.748	527
820.492	23
821.237	123
821.981	27
822.726	29
823.47	24
824.214	22
824.958	32
825.702	22
826.446	28
827.19	23
827.934	26
828.678	34
829.421	45
830.165	26
830.909	29
831.652	21
832.395	32
833.139	25
833.882	33
834.625	23
835.368	25
836.111	23
836.854	32
837.597	26
838.34	20
839.083	26
839.825	22
840.568	25
841.311	30
842.053	17
842.795	37
843.538	26
844.28	19
845.022	9
845.764	23
846.506	19
847.248	27
847.99	18
848.732	37
849.474	22
850.215	27
850.957	30
851.698	30
852.44	18
853.181	30
853.922	17
854.664	41
855.405	30
856.146	27
856.887	36
857.628	25
858.369	12
859.109	31
859.85	24
860.591	21
861.331	37
862.072	27
862.812	26
863.553	26
864.293	41
865.033	30
865.773	35
866.513	26
867.253	29
867.993	21
868.733	25
869.473	21
870.213	29
870.952	25
871.692	31
872.431	31
873.171	34
873.91	26
874.649	28
875.388	48
876.128	30
876.867	23
877.606	26
878.345	31
879.083	26
879.822	26
880.561	37
881.299	39
882.038	27
882.777	34
883.515	27
884.253	211
884.992	32
885.73	37
886.468	34
887.206	33
887.944	48
888.682	34
889.42	32
890.157	10
890.895	31
891.633	40
892.37	29
893.108	35
893.845	30
894.583	26
895.32	28
896.057	20
896.794	43
897.531	29
898.268	17
899.005	34
899.742	43
900.479	28
901.215	23
901.952	39
902.689	27
903.425	24
904.162	5
904.898	29
905.634	15
906.37	34
907.106	18
907.843	26
908.579	28
909.314	20
910.05	37
910.786	38
911.522	18
912.257	16
912.993	17
913.728	32
914.464	29
915.199	25
915.935	44
916.67	33
917.405	25
918.14	23
918.875	31
919.61	34
920.345	29
921.08	38
921.814	27
922.549	16
923.284	9
924.018	24
924.752	24
925.487	31
926.221	33
926.955	22
927.69	15
928.424	34
929.158	34
929.892	19
930.625	28
931.359	34
932.093	31
932.827	30
933.56	35
934.294	17
935.027	23
935.761	39
936.494	22
937.227	32
937.96	35
938.693	35
939.426	19
940.159	20
940.892	22
941.625	29
942.358	26
943.091	37
943.823	19
944.556	23
945.288	32
946.021	23
946.753	20
947.485	33
948.217	30
948.95	39
949.682	13
950.414	26
951.146	21
951.877	34
952.609	36
953.341	16
954.073	41
954.804	30
955.536	31
956.267	32
956.998	14
957.73	15
958.461	26
959.192	23
959.923	37
960.654	42
961.385	16
962.116	22
962.847	23
963.578	27
964.308	24
965.039	26
965.769	29
966.5	37
967.23	20
967.961	28
968.691	31
969.421	23
970.151	21
970.881	26
971.611	40
972.341	20
973.071	25
973.801	38
974.53	30
975.26	32
975.99	21
976.719	31
977.448	33
978.178	34
978.907	37
979.636	38
980.365	29
981.095	22
981.824	39
982.553	30
983.281	8
984.01	-2
984.739	-2
985.468	-1
986.196	-8
986.925	49
987.653	37
988.382	25
989.11	25
989.838	38
990.566	12
991.295	29
992.023	34
992.751	27
993.478	16
994.206	44
994.934	27
995.662	4
996.389	2
997.117	-1
997.845	8
